File: Fluid_inclusion_Data/Raman/Kamae'huakanaloa_12-02-24/Spectra/32 KA961_c106_a2_FIB_epoxygross_CRR_DiadFit.txt
1042.41	716.5
1042.98	718.0
1043.55	714.75
1044.11	715.25
1044.68	712.25
1045.25	710.0
1045.81	709.0
1046.38	706.0
1046.94	707.5
1047.51	703.25
1048.08	704.75
1048.64	706.25
1049.21	706.0
1049.77	703.25
1050.34	704.75
1050.91	705.75
1051.47	702.75
1052.04	703.0
1052.6	703.25
1053.17	701.75
1053.73	704.75
1054.3	697.0
1054.86	699.5
1055.43	702.0
1055.99	702.75
1056.56	696.5
1057.12	698.25
1057.69	701.25
1058.25	691.25
1058.82	700.75
1059.38	694.75
1059.95	700.25
1060.51	693.5
1061.08	694.75
1061.64	696.0
1062.21	699.75
1062.77	693.25
1063.34	697.75
1063.9	695.75
1064.46	699.75
1065.03	701.5
1065.59	692.75
1066.16	698.25
1066.72	698.5
1067.29	696.75
1067.85	697.0
1068.41	695.75
1068.98	696.0
1069.54	693.5
1070.1	704.25
1070.67	692.0
1071.23	699.25
1071.8	694.25
1072.36	690.5
1072.92	695.25
1073.49	692.75
1074.05	693.25
1074.61	697.5
1075.18	694.0
1075.74	696.25
1076.3	695.0
1076.86	695.25
1077.43	699.0
1077.99	699.75
1078.55	697.25
1079.12	699.75
1079.68	698.25
1080.24	697.5
1080.8	699.0
1081.37	696.75
1081.93	697.5
1082.49	700.0
1083.05	703.25
1083.62	696.5
1084.18	698.0
1084.74	697.25
1085.3	699.5
1085.87	698.5
1086.43	701.0
1086.99	697.25
1087.55	704.25
1088.11	697.0
1088.67	697.75
1089.24	700.75
1089.8	696.25
1090.36	699.0
1090.92	696.5
1091.48	694.5
1092.04	700.25
1092.61	698.0
1093.17	700.25
1093.73	696.5
1094.29	696.75
1094.85	696.5
1095.41	710.5
1095.97	698.0
1096.53	700.75
1097.1	704.25
1097.66	693.0
1098.22	695.5
1098.78	693.0
1099.34	695.75
1099.9	698.75
1100.46	700.5
1101.02	702.25
1101.58	698.75
1102.14	704.5
1102.7	703.25
1103.26	702.25
1103.82	703.0
1104.38	703.0
1104.94	709.75
1105.5	712.75
1106.06	711.5
1106.62	719.5
1107.18	714.25
1107.74	718.5
1108.3	721.5
1108.86	726.25
1109.42	731.5
1109.98	733.75
1110.54	735.25
1111.1	739.25
1111.66	745.5
1112.22	745.5
1112.78	746.75
1113.34	747.5
1113.9	744.75
1114.46	741.25
1115.02	743.5
1115.57	736.5
1116.13	735.25
1116.69	730.75
1117.25	728.25
1117.81	728.5
1118.37	720.25
1118.93	718.5
1119.49	717.5
1120.04	715.75
1120.603	712.0
1121.16	708.75
1121.72	710.5
1122.28	710.75
1122.84	708.0
1123.39	702.75
1123.95	708.75
1124.51	701.25
1125.07	702.25
1125.63	704.75
1126.19	700.25
1126.74	699.25
1127.3	702.25
1127.86	704.25
1128.42	701.0
1128.97	699.25
1129.53	693.0
1130.09	696.0
1130.65	697.75
1131.2	700.75
1131.76	701.25
1132.32	695.25
1132.88	695.0
1133.43	694.5
1133.99	695.0
1134.55	697.0
1135.1	697.75
1135.66	698.25
1136.22	694.75
1136.78	694.0
1137.33	694.75
1137.89	696.0
1138.45	697.75
1139	691.0
1139.56	695.0
1140.12	690.5
1140.67	693.5
1141.23	693.5
1141.78	695.25
1142.34	693.5
1142.9	693.25
1143.45	691.75
1144.01	690.5
1144.57	695.25
1145.12	696.0
1145.68	694.25
1146.23	696.25
1146.79	693.75
1147.35	696.0
1147.9	694.25
1148.46	693.0
1149.01	693.0
1149.57	693.25
1150.12	694.0
1150.68	693.75
1151.23	696.0
1151.79	695.0
1152.34	695.75
1152.9	692.75
1153.46	698.5
1154.01	697.0
1154.57	694.5
1155.12	696.5
1155.68	695.75
1156.23	691.75
1156.78	690.5
1157.34	694.75
1157.89	694.5
1158.45	694.75
1159	696.25
1159.56	690.0
1160.11	698.25
1160.67	694.75
1161.22	693.25
1161.78	695.75
1162.33	693.75
1162.88	691.75
1163.44	691.75
1163.99	696.25
1164.55	688.25
1165.1	692.75
1165.65	691.25
1166.21	693.25
1166.76	686.5
1167.32	693.0
1167.87	694.5
1168.42	689.75
1168.98	688.5
1169.53	690.0
1170.08	692.25
1170.64	691.25
1171.19	686.5
1171.74	694.0
1172.3	691.5
1172.85	692.5
1173.4	694.25
1173.96	691.5
1174.51	694.75
1175.06	695.25
1175.61	694.25
1176.17	697.75
1176.72	698.75
1177.27	699.5
1177.83	696.0
1178.38	701.5
1178.93	702.75
1179.48	707.75
1180.04	704.5
1180.59	705.0
1181.14	711.5
1181.69	713.5
1182.24	713.75
1182.8	713.5
1183.35	729.5
1183.9	717.25
1184.45	718.0
1185	726.25
1185.56	721.75
1186.11	720.75
1186.66	722.0
1187.21	719.5
1187.76	723.0
1188.31	727.5
1188.87	718.75
1189.42	716.0
1189.97	714.5
1190.52	713.0
1191.07	712.5
1191.62	708.25
1192.17	704.0
1192.72	702.25
1193.28	724.0
1193.83	702.25
1194.38	696.75
1194.93	695.5
1195.48	693.75
1196.03	693.25
1196.58	698.0
1197.13	695.25
1197.68	691.0
1198.23	692.0
1198.78	687.0
1199.33	692.75
1199.88	693.25
1200.43	690.0
1200.98	688.75
1201.53	692.5
1202.09	690.75
1202.64	687.25
1203.19	692.5
1203.74	689.25
1204.29	691.25
1204.83	690.75
1205.38	687.75
1205.93	691.75
1206.48	691.0
1207.03	690.0
1207.58	695.75
1208.13	692.25
1208.68	689.0
1209.23	693.25
1209.78	696.75
1210.33	696.75
1210.88	696.25
1211.43	696.0
1211.98	691.25
1212.53	692.5
1213.08	699.5
1213.62	699.5
1214.17	700.25
1214.72	697.75
1215.27	699.75
1215.82	703.0
1216.37	702.0
1216.92	699.0
1217.47	698.5
1218.01	703.25
1218.56	708.25
1219.11	708.75
1219.66	703.25
1220.21	707.5
1220.76	706.5
1221.3	704.25
1221.85	711.75
1222.4	708.75
1222.95	710.0
1223.5	707.0
1224.04	709.75
1224.59	711.25
1225.14	707.25
1225.69	716.75
1226.23	712.25
1226.78	712.75
1227.33	713.75
1227.88	716.0
1228.42	713.0
1228.97	715.5
1229.52	715.5
1230.07	717.75
1230.61	715.75
1231.16	712.0
1231.71	715.25
1232.26	712.5
1232.8	717.5
1233.35	709.75
1233.9	714.75
1234.44	714.75
1234.99	709.75
1235.54	713.25
1236.08	709.5
1236.63	707.5
1237.18	708.25
1237.72	706.25
1238.27	709.0
1238.81	706.75
1239.36	707.25
1239.91	707.5
1240.45	704.25
1241	704.75
1241.55	703.5
1242.09	705.5
1242.64	708.0
1243.18	705.5
1243.73	708.0
1244.28	708.75
1244.82	706.5
1245.37	704.75
1245.91	714.0
1246.46	703.5
1247	707.75
1247.55	708.0
1248.09	707.25
1248.64	711.0
1249.18	707.25
1249.73	705.5
1250.27	711.0
1250.82	708.25
1251.36	710.25
1251.91	708.5
1252.45	703.75
1253	709.75
1253.54	706.5
1254.09	707.5
1254.63	710.25
1255.18	709.5
1255.72	707.5
1256.27	708.5
1256.81	703.75
1257.36	708.25
1257.9	707.25
1258.45	704.25
1258.99	708.25
1259.53	704.0
1260.62	702.25
1261.17	706.75
1261.71	704.75
1262.25	698.75
1262.8	701.25
1263.34	698.75
1263.89	700.75
1264.43	702.5
1264.97	701.75
1265.52	702.25
1266.06	702.25
1266.6	698.5
1267.15	697.0
1267.69	696.0
1268.23	699.5
1268.78	695.75
1269.32	696.0
1269.86	699.25
1270.41	693.25
1270.95	699.75
1271.49	698.75
1272.03	694.0
1272.58	701.0
1273.12	695.5
1273.66	693.5
1274.21	695.5
1274.75	693.0
1275.29	697.0
1275.83	694.25
1276.38	696.5
1276.92	697.5
1277.46	697.5
1278	695.5
1278.54	700.5
1279.09	697.5
1279.63	693.75
1280.17	697.25
1280.71	698.75
1281.25	694.0
1281.8	698.5
1282.34	698.25
1282.88	704.75
1283.42	704.0
1283.96	713.25
1284.51	724.0
1285.05	741.25
1285.59	740.0
1286.13	718.25
1286.67	706.75
1287.21	704.75
1287.75	701.0
1288.29	701.0
1288.84	707.0
1289.38	701.5
1289.92	709.75
1290.46	704.0
1291	707.25
1291.54	705.5
1292.08	709.5
1292.62	704.0
1293.16	708.75
1293.7	710.0
1294.24	707.75
1294.78	706.75
1295.33	710.5
1295.87	711.75
1296.41	709.75
1296.95	701.75
1297.49	708.25
1298.03	709.25
1298.57	707.5
1299.11	708.0
1299.65	708.75
1300.19	706.75
1300.73	713.75
1301.27	713.25
1301.81	708.0
1302.35	703.75
1302.89	709.5
1303.43	710.75
1303.97	708.0
1304.5	703.5
1305.04	705.5
1305.58	708.0
1306.12	704.25
1306.66	704.5
1307.2	706.25
1307.74	702.25
1308.28	702.25
1308.82	707.0
1309.36	703.0
1309.9	704.5
1310.44	698.75
1310.97	701.75
1311.51	695.0
1312.05	704.5
1312.59	698.25
1313.13	704.75
1313.67	701.0
1314.21	696.75
1314.74	699.25
1315.28	698.5
1315.82	699.5
1316.36	697.5
1316.9	696.25
1317.44	693.5
1317.97	692.75
1318.51	690.5
1319.05	692.25
1319.59	691.75
1320.13	688.5
1320.66	688.75
1321.2	687.75
1321.74	691.0
1322.28	691.25
1322.81	685.0
1323.35	689.5
1323.89	695.25
1324.43	691.0
1324.96	689.25
1325.5	687.5
1326.04	689.0
1326.58	690.75
1327.11	690.25
1327.65	688.25
1328.19	683.0
1328.72	686.75
1329.26	688.0
1329.8	688.75
1330.34	687.5
1330.87	687.5
1331.41	685.75
1331.95	685.75
1332.48	684.5
1333.02	683.5
1333.56	688.0
1334.09	687.25
1334.63	686.25
1335.16	684.5
1335.7	686.5
1336.24	688.0
1336.77	685.75
1337.31	690.25
1337.85	687.0
1338.38	690.0
1338.92	686.5
1339.45	686.75
1339.99	687.75
1340.52	686.0
1341.06	689.5
1341.6	686.75
1342.13	688.5
1342.67	686.0
1343.2	687.25
1343.74	686.25
1344.27	687.25
1344.81	687.0
1345.34	689.75
1345.88	685.5
1346.41	684.0
1346.95	686.75
1347.48	685.75
1348.02	686.75
1348.55	687.25
1349.09	690.25
1349.62	688.25
1350.16	690.0
1350.69	690.0
1351.23	691.0
1351.76	689.0
1352.3	688.25
1352.83	686.75
1353.37	688.0
1353.9	685.5
1354.43	685.25
1354.97	684.25
1355.5	687.5
1356.04	686.75
1356.57	686.25
1357.11	689.5
1357.64	685.75
1358.17	680.75
1358.71	687.25
1359.24	685.75
1359.77	687.0
1360.31	687.25
1360.84	686.5
1361.38	688.75
1361.91	686.75
1362.44	690.75
1362.98	685.75
1363.51	691.25
1364.04	682.25
1364.58	689.25
1365.11	685.75
1365.64	684.25
1366.18	686.0
1366.71	686.0
1367.24	687.75
1367.77	687.5
1368.31	687.0
1368.84	688.5
1369.37	685.25
1369.91	685.25
1370.44	688.0
1370.97	685.25
1371.5	685.5
1372.04	685.75
1372.57	688.5
1373.1	684.25
1373.63	684.75
1374.17	686.75
1374.7	682.75
1375.23	688.5
1375.76	686.0
1376.29	686.75
1376.83	691.75
1377.36	688.75
1377.89	688.25
1378.42	686.75
1378.95	685.0
1379.48	687.25
1380.02	690.5
1380.55	690.0
1381.08	684.75
1381.61	693.0
1382.14	687.5
1382.67	691.75
1383.21	688.0
1383.74	688.0
1384.27	694.25
1384.8	688.75
1385.33	691.5
1385.86	688.0
1386.39	688.75
1386.92	694.75
1387.45	700.75
1387.98	717.5
1388.51	758.25
1389.05	768.75
1389.58	719.0
1390.11	696.75
1390.64	690.0
1391.17	691.5
1391.7	685.5
1392.23	692.0
1392.76	684.5
1393.29	689.25
1393.82	686.75
1394.35	688.25
1394.88	689.25
1395.41	688.5
1395.94	689.0
1396.47	687.25
1397	685.75
1397.53	686.5
1398.06	691.0
1398.59	687.75
1399.12	692.5
1399.65	685.25
1400.18	690.25
1400.71	685.75
1401.24	688.5
1401.77	692.5
1402.29	688.25
1402.82	689.75
1403.35	687.75
1403.88	686.0
1404.41	683.25
1404.94	689.0
1405.47	686.25
1406	690.0
1406.53	687.0
1407.06	690.25
1407.59	688.25
1408.11	692.75
1408.64	690.5
1409.17	689.25
1409.7	693.75
1410.23	696.0
1410.76	690.0
1411.28	692.25
1411.81	687.25
1412.34	688.75
1412.87	688.5
1413.4	687.0
1413.93	686.5
1414.45	690.25
1414.98	690.25
1415.51	695.75
1416.04	689.5
1416.57	686.25
1417.09	688.0
1417.62	688.0
1418.15	685.75
1418.68	690.0
1419.2	690.25
1419.73	685.0
1420.26	688.0
1420.79	683.5
1421.31	683.75
1421.84	683.75
1422.37	686.5
1422.89	688.0
1423.42	689.75
1423.95	688.25
1424.48	685.25
1425	688.25
1425.53	689.75
1426.06	687.75
1426.58	684.75
1427.11	688.75
1427.64	685.75
1428.16	692.0
1428.69	687.75
1429.22	689.5
1429.74	691.5
1430.27	688.25
1430.8	694.5
1431.32	695.75
1431.85	695.0
1432.37	695.25
1432.9	693.25
1433.43	693.5
1433.95	694.25
1434.48	694.0
1435	696.0
1435.53	695.5
1436.06	697.25
1436.58	694.5
1437.11	698.75
1437.63	694.5
1438.16	699.5
1438.68	700.5
1439.21	703.25
1439.73	697.5
1440.26	698.25
1440.78	698.0
1441.31	698.0
1441.84	706.5
1442.36	700.75
1442.89	704.5
1443.41	701.25
1443.94	704.0
1444.46	702.75
1444.99	699.0
1445.51	702.0
1446.03	705.75
1446.56	701.25
1447.08	701.75
1447.61	702.25
1448.13	704.75
1448.66	705.0
1449.18	704.0
1449.71	703.25
1450.23	707.25
1450.75	705.25
1451.28	705.0
1451.8	707.0
1452.33	710.25
1452.85	706.25
1453.37	708.25
1453.9	706.0
1454.42	709.25
1454.95	710.25
1455.47	706.5
1455.99	710.75
1456.52	707.5
1457.04	705.5
1457.56	709.25
1458.09	702.75
1458.61	709.75
1459.13	711.75
1459.66	706.75
1460.18	709.0
1460.7	708.5
1461.23	707.75
1461.75	706.75
1462.27	706.75
1462.8	714.25
1463.32	718.5
1463.84	710.0
1464.36	710.75
1464.89	708.0
1465.41	709.0
1465.93	704.25
1466.46	708.0
1466.978	705.25
1467.5	705.5
1468.02	705.0
1468.55	705.25
1469.07	706.0
1469.59	700.5
1470.11	702.5
1470.63	702.25
1471.16	703.25
1471.68	696.25
1472.2	702.0
1472.72	701.25
1473.24	694.75
1473.77	699.5
1474.29	698.5
1474.81	698.25
1475.33	699.25
1475.85	695.25
1476.37	691.0
1476.9	692.75
1477.42	698.0
1477.94	694.5
1478.46	689.0
1478.98	691.0
1479.5	690.25
1480.02	689.5
1480.54	691.5
1481.07	690.5
1481.59	692.5
1482.11	686.5
1482.63	689.0
1483.15	690.25
1483.67	690.5
1484.19	688.0
1484.71	689.75
1485.23	687.5
1485.75	684.25
1486.27	685.5
1486.79	684.25
1487.31	684.5
1487.83	683.5
1488.35	687.75
1488.87	687.75
1489.39	684.0
1489.91	678.0
1490.43	681.25
1490.95	685.5
1491.47	682.5
1491.99	682.75
1492.51	685.25
1493.03	680.5
1493.55	678.75
1494.07	681.75
1494.59	683.25
1495.11	687.0
1495.63	681.25
1496.15	677.75
1496.67	680.75
1497.19	683.75
1497.71	680.25
1498.23	683.25
1498.75	683.25
1499.27	679.25
1499.79	691.25
1500.3	682.0
1500.82	678.25
1501.34	684.5
1501.86	680.25
1502.38	682.0
1502.9	683.25
1503.42	682.75
1503.94	680.75
1504.45	684.5
1504.97	683.5
1505.49	683.5
1506.01	679.25
1506.53	681.75
1507.05	682.75
1507.56	685.25
1508.08	685.0
1508.6	684.25
1509.12	682.75
1509.64	681.5
1510.16	684.0
1510.67	691.5
1511.19	682.5
1511.71	680.5
1512.23	681.25
1512.74	683.25
1513.26	678.25
1513.78	681.0
1514.3	685.25
1514.81	685.75
1515.33	681.5
1515.85	682.5
1516.37	677.75
1516.88	684.25
1517.4	682.0
1517.92	681.25
1518.44	679.0
1518.95	680.25
1519.47	680.0
1519.99	678.75
1520.5	679.0
1521.02	680.25
1521.54	678.5
1522.05	678.25
1522.57	679.75
1523.09	680.25
1523.6	682.0
1524.12	679.75
1524.64	677.75
1525.15	680.75
1525.67	681.25
1526.19	683.75
1526.7	685.5
1527.22	682.25
1527.73	682.25
1528.25	683.5
1528.77	678.5
1529.28	680.25
1529.8	682.0
1530.31	679.25
1530.83	679.25
1531.34	681.75
1531.86	676.25
1532.38	683.25
1532.89	682.5
1533.41	686.25
1533.92	680.5
1534.44	681.25
1534.95	682.0
1535.47	679.5
1535.98	681.75
1536.5	676.0
1537.01	678.5
1537.53	680.0
1538.04	678.75
1538.56	677.75
1539.07	682.75
1539.59	682.75
1540.1	678.25
1540.62	681.0
1541.13	678.25
1541.65	682.5
1542.16	678.75
1542.68	678.0
1543.19	683.0
1543.71	678.75
1544.22	677.5
1544.73	678.25
1545.25	679.0
1545.76	679.75
1546.28	679.25
1546.79	680.0
1547.31	683.75
1547.82	683.5
1548.33	679.25
1548.85	680.75
1549.36	680.0
1549.87	681.75
1550.39	678.5
1550.9	683.5
1551.42	682.0
1551.929	684.75
1552.44	679.5
1552.96	683.75
1553.47	682.5
1553.98	679.75
1554.5	685.5
1555.01	680.25
1555.52	684.25
1556.04	682.5
1556.55	681.5
1557.06	677.5
1557.57	683.5
1558.09	683.0
1558.6	680.5
1559.11	681.0
1559.63	681.25
1560.14	683.75
1560.65	683.75
1561.16	682.5
1561.68	682.0
1562.19	683.0
1562.7	681.25
1563.21	681.25
1563.73	678.5
1564.24	681.0
1564.75	682.25
1565.26	680.75
1565.77	685.25
1566.29	680.5
1566.8	681.75
1567.31	680.25
1567.82	685.25
1568.33	682.0
1568.85	685.0
1569.36	681.25
1569.87	683.25
1570.38	685.75
1570.89	680.5
1571.4	680.75
1571.91	686.5
1572.43	682.75
1572.94	683.75
1573.45	682.5
1573.96	686.25
1574.47	685.25
1574.98	683.75
1575.49	684.75
1576	686.25
1576.52	687.25
1577.03	680.0
1577.54	690.0
1578.05	689.25
1578.56	689.0
1579.07	691.0
1579.58	690.5
1580.09	690.5
1580.6	691.0
1581.11	694.5
1581.62	692.75
1582.13	692.25
1582.64	689.5
1583.15	693.75
1583.66	694.5
1584.17	687.75
1584.68	688.5
1585.19	687.25
1585.7	691.25
1586.21	691.25
1586.72	687.25
1587.23	686.0
1587.74	689.25
1588.25	689.25
1588.76	689.25
1589.27	687.0
1589.78	685.25
1590.29	685.25
1590.8	688.5
1591.31	684.75
1591.82	688.0
1592.33	689.5